trial,timestamp,word,color,response,correct,response_time
0,1749740950.2479155,BLUE,blue,blue,True,2.210874319076538
1,1749740952.4689107,GREEN,yellow,yellow,True,1.2507469654083252
2,1749740953.7264209,RED,yellow,yellow,True,1.4531347751617432
3,1749740955.1795557,RED,green,green,True,1.3811044692993164
4,1749740956.5617654,RED,green,green,True,1.0898668766021729
5,1749740957.6549947,YELLOW,blue,blue,True,1.5088732242584229
6,1749740959.1677678,GREEN,yellow,yellow,True,1.2161965370178223
7,1749740960.389888,RED,green,green,True,1.1069602966308594
8,1749740961.5065346,GREEN,red,red,True,1.2221276760101318
9,1749740962.7348368,YELLOW,green,green,True,0.9435849189758301
10,1749740963.6849453,GREEN,red,red,True,0.764824628829956
11,1749740964.44977,GREEN,green,green,True,0.7835783958435059
12,1749740965.2434487,BLUE,blue,blue,True,1.2038755416870117
13,1749740966.4517734,RED,yellow,yellow,True,1.269273042678833
14,1749740967.722167,RED,yellow,yellow,True,0.8994605541229248
15,1749740968.6216276,RED,green,green,True,1.1132540702819824
16,1749740969.7358813,RED,blue,blue,True,1.0772490501403809
17,1749740970.8141418,RED,red,red,True,0.9777190685272217
18,1749740971.7970495,BLUE,green,green,True,1.1954879760742188
19,1749740972.9936395,BLUE,green,green,True,1.0322797298431396
20,1749740974.0327566,RED,red,red,True,1.4346580505371094
21,1749740975.475651,GREEN,blue,blue,True,1.42578125
22,1749740976.9092805,RED,yellow,yellow,True,1.1719534397125244
23,1749740978.0906303,YELLOW,yellow,yellow,True,0.6302361488342285
24,1749740978.7247162,RED,blue,blue,True,1.3388566970825195
25,1749740980.0688596,GREEN,red,red,True,1.0670478343963623
26,1749740981.14324,YELLOW,red,red,True,0.7544498443603516
27,1749740981.8976898,YELLOW,red,red,True,1.190894603729248
28,1749740983.0987942,BLUE,green,green,True,0.9483282566070557
29,1749740984.061389,YELLOW,red,red,True,0.7568461894989014
30,1749740984.826766,BLUE,yellow,yellow,True,1.0549664497375488
31,1749740985.8956091,GREEN,yellow,yellow,True,0.6074013710021973
32,1749740986.5108085,BLUE,blue,blue,True,1.0325326919555664
33,1749740987.5443456,BLUE,red,red,True,0.6643519401550293
34,1749740988.214589,RED,green,green,True,0.7888693809509277
35,1749740989.0074332,BLUE,green,green,True,0.8505902290344238
36,1749740989.8590345,BLUE,green,green,True,0.8772130012512207
37,1749740990.7397425,YELLOW,yellow,yellow,True,0.7707514762878418
38,1749740991.518536,RED,blue,blue,True,0.9425485134124756
39,1749740992.4678698,GREEN,blue,blue,True,0.5136144161224365
40,1749740992.9900992,BLUE,green,green,True,0.8148725032806396
41,1749740993.8105571,RED,red,red,True,0.839935302734375
42,1749740994.6515071,RED,red,red,True,0.8220574855804443
43,1749740995.4735646,RED,blue,blue,True,1.008134126663208
44,1749740996.490109,BLUE,green,green,True,0.7748637199401855
45,1749740997.271855,GREEN,blue,blue,True,0.9201710224151611
46,1749740998.2083058,YELLOW,green,green,True,1.96083402633667
47,1749741000.1752214,BLUE,blue,blue,True,0.8426787853240967
48,1749741001.023531,RED,yellow,yellow,True,1.0826387405395508
49,1749741002.1096342,BLUE,green,green,True,1.4992005825042725
50,1749741003.613358,RED,yellow,yellow,True,0.8777439594268799
51,1749741004.4959762,BLUE,green,green,True,1.1624841690063477
52,1749741005.662589,GREEN,green,green,True,0.7783594131469727
53,1749741006.447886,BLUE,green,green,True,1.0050618648529053
54,1749741007.4570072,YELLOW,green,green,True,0.8929243087768555
55,1749741008.3528054,BLUE,green,green,True,0.8023207187652588
56,1749741009.1597178,GREEN,red,red,True,1.4983248710632324
57,1749741010.6600616,GREEN,red,red,True,0.9215528964996338
58,1749741011.5894525,YELLOW,green,green,True,1.176856517791748
59,1749741012.776906,BLUE,yellow,yellow,True,0.9846310615539551
60,1749741013.763808,BLUE,blue,blue,True,0.9231116771697998
61,1749741014.6945088,RED,red,red,True,1.7179288864135742
62,1749741016.421842,GREEN,red,red,True,0.708482027053833
63,1749741017.1323338,GREEN,blue,blue,True,1.2403795719146729
64,1749741018.3860981,YELLOW,green,green,True,1.128645658493042
65,1749741019.515748,YELLOW,blue,blue,True,1.095860481262207
66,1749741020.612768,YELLOW,green,green,True,0.920813798904419
67,1749741021.534659,YELLOW,blue,blue,True,1.0012104511260986
68,1749741022.539919,RED,red,red,True,0.795668363571167
69,1749741023.3422627,GREEN,yellow,yellow,True,1.1482667922973633
70,1749741024.4996278,BLUE,yellow,yellow,True,0.7993347644805908
71,1749741025.3022816,YELLOW,green,green,True,0.7838180065155029
72,1749741026.0933397,BLUE,yellow,yellow,True,0.828782320022583
73,1749741026.9272773,YELLOW,green,green,True,0.829190731048584
74,1749741027.756468,YELLOW,green,green,True,0.7389161586761475
75,1749741028.5003147,BLUE,yellow,yellow,True,0.7954797744750977
76,1749741029.2971878,BLUE,yellow,yellow,True,0.9710772037506104
77,1749741030.2768848,RED,blue,green,False,0.9342985153198242
78,1749741031.2177613,GREEN,red,red,True,2.0273730754852295
79,1749741033.2524838,YELLOW,green,green,True,0.8771395683288574
80,1749741034.1370468,GREEN,red,red,True,0.8036770820617676
81,1749741034.9459064,RED,green,green,True,1.039700984954834
82,1749741035.9976656,BLUE,yellow,yellow,True,1.2272639274597168
83,1749741037.2308853,RED,blue,blue,True,1.3081464767456055
84,1749741038.542576,BLUE,red,red,True,1.7837424278259277
85,1749741040.3347764,RED,green,green,True,1.1558411121368408
86,1749741041.4973536,GREEN,red,red,True,0.7253046035766602
87,1749741042.2298565,RED,blue,blue,True,0.8516130447387695
88,1749741043.0895667,YELLOW,red,red,True,1.8889572620391846
89,1749741044.9845233,RED,red,red,True,0.5992631912231445
90,1749741045.594777,GREEN,green,green,True,1.2482635974884033
91,1749741046.8514206,RED,red,red,True,0.7262239456176758
92,1749741047.5776446,RED,yellow,yellow,True,0.972710132598877
93,1749741048.5582514,GREEN,red,red,True,2.15798282623291
94,1749741050.7248552,RED,red,red,True,0.5763647556304932
95,1749741051.312066,GREEN,green,green,True,0.6649107933044434
96,1749741051.9839928,YELLOW,yellow,yellow,True,0.8254380226135254
97,1749741052.8134496,BLUE,blue,blue,True,1.0904433727264404
98,1749741053.9211135,RED,yellow,yellow,True,1.184605598449707
99,1749741055.1125782,YELLOW,green,green,True,1.6721184253692627
100,1749741056.7846966,YELLOW,green,green,True,0.828277587890625
101,1749741057.6186378,RED,green,green,True,0.6618063449859619
102,1749741058.294869,GREEN,red,red,True,0.9132840633392334
103,1749741059.213922,BLUE,red,red,True,0.6820917129516602
104,1749741059.9042222,GREEN,yellow,yellow,True,1.3333046436309814
105,1749741061.2425961,BLUE,yellow,yellow,True,0.745309591293335
106,1749741062.0027986,RED,green,green,True,1.659602403640747
107,1749741063.6754744,GREEN,green,green,True,0.48557066917419434
108,1749741064.1620655,GREEN,red,red,True,0.9292240142822266
109,1749741065.0972033,RED,red,red,True,0.4885258674621582
110,1749741065.5868323,RED,blue,blue,True,1.0423529148101807
111,1749741066.6348343,BLUE,blue,blue,True,0.6514377593994141
112,1749741067.3022678,RED,green,green,True,1.545647144317627
113,1749741068.84992,RED,blue,blue,True,1.5476336479187012
114,1749741070.4049094,GREEN,yellow,yellow,True,1.067397117614746
115,1749741071.4733064,GREEN,blue,blue,True,2.006960868835449
116,1749741073.4902782,YELLOW,yellow,yellow,True,1.2347595691680908
117,1749741074.7309835,BLUE,green,blue,False,1.3757901191711426
118,1749741076.1067736,BLUE,green,green,True,1.2658607959747314
119,1749741077.3736348,BLUE,blue,blue,True,1.8647396564483643
120,1749741079.2534227,YELLOW,red,red,True,1.3888294696807861
121,1749741080.6543667,GREEN,green,green,True,1.0797324180603027
122,1749741081.7409477,YELLOW,blue,blue,True,1.169173002243042
123,1749741082.9111354,YELLOW,red,red,True,1.3163566589355469
124,1749741084.2381804,RED,blue,blue,True,0.9864065647125244
125,1749741085.225775,RED,blue,blue,True,1.0728309154510498
126,1749741086.3033006,YELLOW,green,green,True,1.08101224899292
127,1749741087.3906295,RED,yellow,yellow,True,1.1203532218933105
128,1749741088.5166545,BLUE,green,green,True,1.303593397140503
129,1749741089.8275652,GREEN,yellow,yellow,True,1.0395832061767578
130,1749741090.8727896,RED,blue,blue,True,1.1446959972381592
131,1749741092.0186305,RED,red,red,True,0.8068351745605469
132,1749741092.8274999,RED,green,green,True,1.1031126976013184
133,1749741093.9387045,YELLOW,green,green,True,0.6527085304260254
134,1749741094.592871,YELLOW,red,red,True,1.3876628875732422
135,1749741095.9909315,RED,yellow,yellow,True,0.997642993927002
136,1749741096.9995368,YELLOW,red,red,True,1.7599995136260986
137,1749741098.7680907,RED,blue,blue,True,1.4025580883026123
138,1749741100.1813574,YELLOW,blue,blue,True,1.2393109798431396
139,1749741101.4279447,GREEN,red,red,True,2.307856321334839
140,1749741103.7428236,BLUE,blue,blue,True,0.8406217098236084
141,1749741104.5863383,BLUE,green,green,True,0.9646410942077637
142,1749741105.5603385,GREEN,red,red,True,1.764855146408081
143,1749741107.33415,BLUE,blue,blue,True,1.3363151550292969
144,1749741108.6792586,GREEN,yellow,yellow,True,1.084136962890625
145,1749741109.771624,YELLOW,green,green,True,1.614431619644165
146,1749741111.387229,YELLOW,green,green,True,0.9729712009429932
147,1749741112.3665416,GREEN,blue,blue,True,2.547525644302368
148,1749741114.922734,RED,red,red,True,1.3629379272460938
149,1749741116.2948692,YELLOW,blue,blue,True,2.4880943298339844
150,1749741118.7878385,GREEN,yellow,yellow,True,1.7758393287658691
151,1749741120.575894,BLUE,green,green,True,1.3753173351287842
152,1749741121.9523299,BLUE,blue,blue,True,0.8953700065612793
153,1749741122.8572166,YELLOW,blue,blue,True,0.7950010299682617
154,1749741123.6532223,YELLOW,yellow,yellow,True,0.8825578689575195
155,1749741124.543644,RED,red,red,True,1.0153274536132812
156,1749741125.5600736,RED,green,green,True,0.9487838745117188
157,1749741126.5158257,GREEN,red,red,True,0.5149712562561035
158,1749741127.0355349,YELLOW,green,green,True,0.6270003318786621
159,1749741127.6635342,YELLOW,yellow,yellow,True,0.7130692005157471
160,1749741128.3830276,RED,green,green,True,0.6867070198059082
161,1749741129.0772386,GREEN,red,red,True,0.9317188262939453
162,1749741130.009969,GREEN,blue,blue,True,0.89699387550354
163,1749741130.9134784,YELLOW,blue,blue,True,0.7562301158905029
164,1749741131.6754704,GREEN,blue,blue,True,0.5483496189117432
165,1749741132.2311323,BLUE,blue,blue,True,0.4353337287902832
166,1749741132.6734335,YELLOW,blue,blue,True,0.6467103958129883
167,1749741133.3252954,GREEN,red,red,True,1.4951159954071045
168,1749741134.829297,RED,yellow,yellow,True,0.9489707946777344
169,1749741135.7919273,BLUE,red,red,True,1.3121225833892822
170,1749741137.105045,BLUE,green,green,True,1.104278326034546
171,1749741138.2113054,BLUE,yellow,yellow,True,1.2463064193725586
172,1749741139.4627283,YELLOW,yellow,yellow,True,0.5631942749023438
173,1749741140.026921,YELLOW,green,green,True,1.55006742477417
174,1749741141.5943346,RED,red,red,True,1.5034847259521484
175,1749741143.1071293,GREEN,yellow,yellow,True,1.395939826965332
176,1749741144.5121675,RED,yellow,yellow,True,0.6726393699645996
177,1749741145.193992,GREEN,red,red,True,0.7533447742462158
178,1749741145.955165,RED,red,red,True,0.582141637802124
179,1749741146.5499926,BLUE,green,green,True,2.9042177200317383
180,1749741149.462442,GREEN,blue,blue,True,1.143301248550415
181,1749741150.6107972,YELLOW,yellow,yellow,True,0.9217197895050049
182,1749741151.5339491,YELLOW,red,red,True,0.9696946144104004
183,1749741152.5046585,YELLOW,blue,blue,True,1.1975648403167725
184,1749741153.703221,YELLOW,blue,blue,True,0.4450068473815918
185,1749741154.154047,BLUE,red,red,True,0.8082120418548584
186,1749741154.9698696,RED,red,red,True,0.4888417720794678
187,1749741155.467684,BLUE,green,green,True,1.1590783596038818
188,1749741156.6345613,GREEN,blue,blue,True,1.0641388893127441
189,1749741157.7073436,YELLOW,green,green,True,1.2436909675598145
190,1749741158.9576051,RED,blue,blue,True,0.9011809825897217
191,1749741159.8622327,GREEN,green,green,True,0.6161611080169678
192,1749741160.4803917,GREEN,red,red,True,0.9136483669281006
193,1749741161.402018,YELLOW,blue,blue,True,0.8948733806610107
194,1749741162.3040304,RED,blue,blue,True,0.4205803871154785
195,1749741162.729302,BLUE,green,green,True,1.527574062347412
196,1749741164.2580216,BLUE,red,red,True,1.3732154369354248
197,1749741165.6322856,BLUE,red,red,True,1.2956385612487793
198,1749741166.9329226,YELLOW,green,green,True,1.8593435287475586
199,1749741168.7967331,GREEN,green,green,True,0.43454623222351074
200,1749741169.2383535,YELLOW,red,red,True,0.9424738883972168
201,1749741170.1905653,GREEN,blue,blue,True,2.1953442096710205
202,1749741172.4013176,YELLOW,green,green,True,1.066765308380127
203,1749741173.4690883,YELLOW,green,green,True,1.3132882118225098
204,1749741174.7860122,BLUE,red,red,True,1.6746501922607422
205,1749741176.465106,RED,red,red,True,0.5262706279754639
206,1749741177.0053785,GREEN,blue,blue,True,0.8835945129394531
207,1749741177.893299,BLUE,green,green,True,0.831132173538208
208,1749741178.7320383,GREEN,green,green,True,0.49093079566955566
209,1749741179.2319977,RED,red,red,True,0.6801681518554688
210,1749741179.9180114,YELLOW,blue,blue,True,1.2338454723358154
211,1749741181.1594882,RED,blue,blue,True,0.5146064758300781
212,1749741181.6809063,YELLOW,green,green,True,0.6837446689605713
213,1749741182.3715932,GREEN,green,green,True,0.5204064846038818
214,1749741182.901467,BLUE,blue,blue,True,0.5675673484802246
215,1749741183.4772644,GREEN,red,red,True,0.7372550964355469
216,1749741184.2155151,GREEN,yellow,yellow,True,0.927079439163208
217,1749741185.1512458,BLUE,blue,blue,True,1.3997032642364502
218,1749741186.5519674,BLUE,red,red,True,0.6264538764953613
219,1749741187.1837876,RED,green,green,True,0.8802690505981445
220,1749741188.0681005,BLUE,yellow,yellow,True,0.9120151996612549
221,1749741188.987941,RED,yellow,yellow,True,0.5609440803527832
222,1749741189.5508876,RED,green,green,True,0.8051373958587646
223,1749741190.356025,RED,red,red,True,1.0170738697052002
224,1749741191.379357,YELLOW,green,green,True,1.6876075267791748
225,1749741193.0749142,RED,green,green,True,0.733302116394043
226,1749741193.8134313,BLUE,green,green,True,0.41329169273376465
227,1749741194.234234,YELLOW,blue,blue,True,0.9385256767272949
228,1749741195.1737752,YELLOW,red,red,True,1.0410301685333252
229,1749741196.2225645,BLUE,red,red,True,0.5301854610443115
230,1749741196.7562969,RED,yellow,yellow,True,0.9739766120910645
231,1749741197.7389405,GREEN,red,red,True,1.5504999160766602
232,1749741199.2919402,RED,green,green,True,1.0310299396514893
233,1749741200.3229702,RED,blue,blue,True,1.3194043636322021
234,1749741201.6462321,BLUE,yellow,yellow,True,1.825707197189331
235,1749741203.4793694,GREEN,yellow,yellow,True,0.446547269821167
236,1749741203.9297385,RED,yellow,yellow,True,0.42795419692993164
237,1749741204.3638313,YELLOW,red,red,True,0.9386260509490967
238,1749741205.311863,GREEN,green,green,True,0.7517530918121338
239,1749741206.0649903,GREEN,yellow,yellow,True,0.9396207332611084
240,1749741207.0109367,YELLOW,blue,blue,True,1.08845853805542
241,1749741208.1071577,GREEN,blue,blue,True,0.5213043689727783
242,1749741208.6335268,BLUE,red,red,True,0.8053967952728271
243,1749741209.443514,RED,blue,blue,True,0.6877439022064209
244,1749741210.1445851,GREEN,yellow,yellow,True,1.101067066192627
245,1749741211.2506316,RED,red,red,True,0.949026346206665
246,1749741212.2016602,RED,green,green,True,1.2495918273925781
247,1749741213.461081,BLUE,blue,blue,True,1.1896591186523438
248,1749741214.6626313,GREEN,yellow,yellow,True,1.050898790359497
249,1749741215.7149053,GREEN,green,green,True,0.8868050575256348
250,1749741216.6027288,GREEN,yellow,yellow,True,0.7865931987762451
251,1749741217.4022455,BLUE,blue,blue,True,0.7155210971832275
252,1749741218.1314564,RED,yellow,yellow,True,1.006434440612793
253,1749741219.1446304,YELLOW,red,red,True,0.9769837856292725
254,1749741220.1226127,YELLOW,yellow,yellow,True,0.9047353267669678
255,1749741221.031677,BLUE,yellow,yellow,True,1.020045518875122
256,1749741222.055818,GREEN,red,red,True,1.3095626831054688
257,1749741223.3659897,GREEN,yellow,yellow,True,0.5703146457672119
258,1749741223.944175,RED,yellow,yellow,True,0.5374722480773926
259,1749741224.48562,GREEN,red,red,True,0.9268593788146973
260,1749741225.4199898,BLUE,green,green,True,1.445613145828247
261,1749741226.8734128,YELLOW,blue,blue,True,1.630678653717041
262,1749741228.508588,BLUE,blue,yellow,False,0.003994941711425781
263,1749741228.5173135,YELLOW,green,green,True,2.639596700668335
264,1749741231.163836,RED,yellow,yellow,True,2.2415075302124023
265,1749741233.4063418,RED,red,red,True,0.8540120124816895
266,1749741234.2694428,GREEN,blue,blue,True,2.3972086906433105
267,1749741236.673239,BLUE,yellow,yellow,True,1.8596735000610352
268,1749741238.5402706,RED,green,green,True,1.3093748092651367
269,1749741239.856085,YELLOW,blue,blue,True,1.2768268585205078
270,1749741241.133929,YELLOW,red,red,True,0.825692892074585
271,1749741241.9652393,BLUE,blue,blue,True,0.8688292503356934
272,1749741242.841979,RED,blue,blue,True,1.5320146083831787
273,1749741244.3829093,YELLOW,green,green,True,1.356926679611206
274,1749741245.7440243,RED,yellow,yellow,True,2.048902750015259
275,1749741247.7939267,RED,yellow,yellow,True,0.6497483253479004
276,1749741248.4509559,GREEN,blue,blue,True,0.8732924461364746
277,1749741249.330448,BLUE,green,green,True,1.1738529205322266
278,1749741250.511168,RED,red,red,True,0.5239248275756836
279,1749741251.042639,GREEN,red,red,True,0.5160174369812012
280,1749741251.5663726,BLUE,blue,blue,True,1.0988779067993164
281,1749741252.6699724,GREEN,blue,blue,True,0.5472705364227295
282,1749741253.2184577,GREEN,green,green,True,0.9149417877197266
283,1749741254.1358805,RED,blue,blue,True,1.3355419635772705
284,1749741255.4789271,GREEN,green,green,True,0.7230465412139893
285,1749741256.20302,GREEN,yellow,yellow,True,0.8981826305389404
286,1749741257.1022346,GREEN,green,green,True,2.9726250171661377
287,1749741260.082706,YELLOW,red,red,True,1.340555191040039
288,1749741261.4246576,YELLOW,red,red,True,0.7200093269348145
289,1749741262.144667,YELLOW,blue,blue,True,0.9680993556976318
290,1749741263.117787,BLUE,green,green,True,1.237739086151123
291,1749741264.363456,GREEN,blue,blue,True,3.1387381553649902
292,1749741267.5074506,RED,green,green,True,1.6190502643585205
293,1749741269.1275005,RED,red,red,True,0.9817633628845215
294,1749741270.113663,GREEN,red,red,True,0.7688684463500977
295,1749741270.8908772,YELLOW,green,green,True,1.7154579162597656
296,1749741272.6138518,GREEN,blue,blue,True,1.4518492221832275
297,1749741274.074135,RED,green,green,True,1.6983013153076172
298,1749741275.782112,BLUE,blue,blue,True,0.7791285514831543
299,1749741276.5723362,YELLOW,green,green,True,0.5306997299194336
300,1749741277.1071558,GREEN,blue,blue,True,0.5036904811859131
301,1749741277.6223123,RED,blue,blue,True,0.9578256607055664
302,1749741278.5811355,RED,green,green,True,0.7519407272338867
303,1749741279.3393397,YELLOW,blue,blue,True,1.0162930488586426
304,1749741280.356631,YELLOW,blue,blue,True,0.6781704425811768
305,1749741281.039053,GREEN,blue,blue,True,1.4682681560516357
306,1749741282.5136163,BLUE,red,red,True,0.9484848976135254
307,1749741283.4722826,YELLOW,red,red,True,0.7218718528747559
308,1749741284.204701,BLUE,red,red,True,0.8599882125854492
309,1749741285.0729396,RED,yellow,yellow,True,1.504624605178833
310,1749741286.5818307,YELLOW,yellow,yellow,True,0.6190850734710693
311,1749741287.2056692,BLUE,blue,blue,True,0.963299036026001
312,1749741288.1689682,BLUE,green,green,True,1.0673251152038574
313,1749741289.241811,YELLOW,yellow,yellow,True,0.8316450119018555
314,1749741290.077941,GREEN,blue,blue,True,1.5593907833099365
315,1749741291.6383321,GREEN,blue,blue,True,0.6671662330627441
316,1749741292.3111255,YELLOW,yellow,yellow,True,0.7359933853149414
317,1749741293.0603666,GREEN,red,red,True,1.3023242950439453
318,1749741294.3709664,RED,green,green,True,1.3657808303833008
319,1749741295.7377455,RED,blue,blue,True,0.9068741798400879
320,1749741296.6550362,YELLOW,red,red,True,1.6313259601593018
321,1749741298.2938209,RED,blue,blue,True,2.010718584060669
322,1749741300.3045394,RED,yellow,yellow,True,0.8524370193481445
323,1749741301.166978,GREEN,blue,blue,True,1.0097346305847168
324,1749741302.185844,RED,blue,blue,True,0.5390574932098389
325,1749741302.7264428,RED,red,red,True,0.7060554027557373
326,1749741303.4359672,GREEN,yellow,yellow,True,0.9495558738708496
327,1749741304.3935204,RED,red,red,True,0.8275129795074463
328,1749741305.2229075,RED,red,red,True,0.815791130065918
329,1749741306.0423982,GREEN,blue,blue,True,1.1231274604797363
330,1749741307.1667392,GREEN,green,green,True,0.7590248584747314
331,1749741307.9329355,BLUE,blue,blue,True,0.618457555770874
332,1749741308.5575926,GREEN,green,green,True,0.8146965503692627
333,1749741309.3773365,RED,red,red,True,1.4216172695159912
334,1749741310.8052611,GREEN,red,red,True,0.8566932678222656
335,1749741311.6665592,BLUE,blue,blue,True,1.0613737106323242
336,1749741312.7404923,RED,red,red,True,0.5921180248260498
337,1749741313.333709,RED,green,green,True,1.1761152744293213
338,1749741314.515663,GREEN,blue,blue,True,1.5082430839538574
339,1749741316.0253272,GREEN,red,red,True,1.2943675518035889
340,1749741317.331706,BLUE,green,green,True,1.6253809928894043
341,1749741318.958613,BLUE,green,green,True,0.5791587829589844
342,1749741319.5470266,GREEN,yellow,yellow,True,0.8924069404602051
343,1749741320.4428892,YELLOW,green,green,True,0.9738037586212158
344,1749741321.4302268,RED,yellow,yellow,True,0.7799913883209229
345,1749741322.2122214,RED,yellow,yellow,True,1.0200257301330566
346,1749741323.2391455,BLUE,green,green,True,1.1497879028320312
347,1749741324.3973556,RED,blue,blue,True,1.2377991676330566
348,1749741325.6398058,YELLOW,red,red,True,1.1428332328796387
349,1749741326.7958295,BLUE,green,green,True,1.1286797523498535
350,1749741327.9305928,RED,blue,blue,True,2.410200834274292
351,1749741330.3458972,BLUE,green,green,True,1.521378517150879
352,1749741331.8682897,BLUE,yellow,yellow,True,0.8544538021087646
353,1749741332.7298765,YELLOW,red,red,True,1.4017245769500732
354,1749741334.1326187,YELLOW,green,green,True,1.100191354751587
355,1749741335.2392008,RED,blue,blue,True,1.0146336555480957
356,1749741336.25485,RED,green,green,True,1.0115838050842285
357,1749741337.2786222,GREEN,yellow,yellow,True,1.0921778678894043
358,1749741338.3776846,RED,green,green,True,0.960676908493042
359,1749741339.3486943,YELLOW,yellow,yellow,True,0.871636152267456
360,1749741340.2213275,YELLOW,green,green,True,0.7447104454040527
361,1749741340.9702082,BLUE,yellow,yellow,True,1.186222791671753
362,1749741342.164136,GREEN,blue,blue,True,1.0022735595703125
363,1749741343.176009,YELLOW,green,green,True,3.753136157989502
364,1749741346.9366853,BLUE,yellow,yellow,True,0.8047738075256348
365,1749741347.742464,BLUE,red,red,True,1.0748136043548584
366,1749741348.8223658,YELLOW,yellow,yellow,True,0.8500626087188721
367,1749741349.681007,RED,green,green,True,0.7966458797454834
368,1749741350.4856992,BLUE,blue,blue,True,0.7916719913482666
369,1749741351.2810695,YELLOW,yellow,yellow,True,1.055631399154663
370,1749741352.3377216,YELLOW,red,red,True,1.2964553833007812
371,1749741353.6429465,RED,red,red,True,0.9125785827636719
372,1749741354.556671,RED,blue,blue,True,1.8586783409118652
373,1749741356.4222853,YELLOW,red,red,True,2.194694995880127
374,1749741358.6240144,BLUE,blue,blue,True,0.7805380821228027
375,1749741359.412524,YELLOW,green,green,True,0.7334427833557129
376,1749741360.1577635,GREEN,blue,blue,True,1.1164376735687256
377,1749741361.2764978,GREEN,red,red,True,0.8875782489776611
378,1749741362.1720626,RED,yellow,yellow,True,1.1503431797027588
379,1749741363.3234234,RED,red,red,True,1.6345844268798828
380,1749741364.9670608,GREEN,blue,blue,True,0.6939041614532471
381,1749741365.6665406,RED,yellow,yellow,True,0.8013749122619629
382,1749741366.4757445,BLUE,green,green,True,1.1145024299621582
383,1749741367.5912654,BLUE,red,red,True,1.96354079246521
384,1749741369.5605392,YELLOW,yellow,yellow,True,1.1418566703796387
385,1749741370.7099426,GREEN,yellow,yellow,True,0.7011990547180176
386,1749741371.4226582,BLUE,green,green,True,2.3931519985198975
387,1749741373.8179812,BLUE,yellow,yellow,True,0.8694498538970947
388,1749741374.6884537,BLUE,blue,blue,True,2.7877209186553955
389,1749741377.480765,GREEN,yellow,yellow,True,0.959742546081543
390,1749741378.4459133,RED,blue,blue,True,1.126521110534668
391,1749741379.5777113,GREEN,green,green,True,0.7000069618225098
392,1749741380.2796268,GREEN,yellow,yellow,True,0.8476870059967041
393,1749741381.1355648,RED,yellow,yellow,True,0.6802375316619873
394,1749741381.8221252,GREEN,blue,blue,True,1.318474531173706
395,1749741383.1416047,GREEN,red,red,True,0.7690305709838867
396,1749741383.919524,RED,blue,blue,True,0.6987128257751465
397,1749741384.6192348,RED,green,green,True,1.0187489986419678
398,1749741385.6455264,BLUE,green,green,True,1.8843674659729004
399,1749741387.538118,RED,blue,blue,True,1.9321813583374023
400,1749741389.4723918,RED,blue,blue,True,1.8199403285980225
401,1749741391.299332,BLUE,green,green,True,1.299595594406128
402,1749741392.6000564,BLUE,blue,blue,True,0.703972339630127
403,1749741393.3135128,RED,red,red,True,0.8916800022125244
404,1749741394.2131405,YELLOW,green,green,True,1.1815237998962402
405,1749741395.4009569,RED,yellow,yellow,True,1.210561752319336
406,1749741396.6127179,RED,green,green,True,0.896289587020874
407,1749741397.5171127,BLUE,red,red,True,3.7425477504730225
408,1749741401.2668297,RED,yellow,yellow,True,0.9080395698547363
409,1749741402.1810293,YELLOW,green,green,True,1.1459593772888184
410,1749741403.3317385,RED,yellow,yellow,True,1.0372352600097656
411,1749741404.379669,YELLOW,blue,blue,True,2.191438674926758
412,1749741406.5838647,GREEN,blue,blue,True,0.7723867893218994
413,1749741407.3610678,RED,yellow,yellow,True,0.9651989936828613
414,1749741408.3337266,BLUE,green,green,True,1.841106653213501
415,1749741410.1836727,GREEN,yellow,yellow,True,1.0784997940063477
416,1749741411.2691956,RED,blue,blue,True,0.8528733253479004
417,1749741412.1285994,BLUE,yellow,yellow,True,1.0395925045013428
418,1749741413.176768,YELLOW,blue,blue,True,0.568917989730835
419,1749741413.7522717,BLUE,yellow,yellow,True,0.5270085334777832
420,1749741414.2868166,YELLOW,yellow,yellow,True,0.5042266845703125
421,1749741414.7989063,BLUE,yellow,yellow,True,0.45749330520629883
422,1749741415.2574143,BLUE,red,red,True,0.9973742961883545
423,1749741416.255784,BLUE,green,green,True,1.1167194843292236
424,1749741417.3785098,YELLOW,yellow,yellow,True,1.158834457397461
425,1749741418.5443585,BLUE,green,green,True,2.534020185470581
426,1749741421.0834532,YELLOW,red,red,True,2.6278045177459717
427,1749741423.7178488,GREEN,red,red,True,0.7167847156524658
428,1749741424.4346335,GREEN,red,red,True,1.042637825012207
429,1749741425.4783015,GREEN,green,green,True,0.7271816730499268
430,1749741426.2054832,GREEN,red,red,True,0.6033186912536621
431,1749741426.813258,BLUE,red,red,True,0.5880382061004639
432,1749741427.4074686,GREEN,blue,blue,True,1.0493907928466797
433,1749741428.45991,BLUE,yellow,yellow,True,1.425246238708496
434,1749741429.8851562,BLUE,blue,blue,True,1.3169662952423096
435,1749741431.2035594,BLUE,yellow,yellow,True,0.9479966163635254
436,1749741432.1578307,YELLOW,green,green,True,0.9972023963928223
437,1749741433.1649835,RED,red,red,True,0.8004007339477539
438,1749741433.9774058,BLUE,yellow,yellow,True,1.082761526107788
439,1749741435.067081,YELLOW,green,green,True,3.2684764862060547
440,1749741438.3366325,YELLOW,red,red,True,1.5883984565734863
441,1749741439.9368358,BLUE,yellow,yellow,True,1.5041351318359375
442,1749741441.4510758,YELLOW,red,red,True,2.2055821418762207
443,1749741443.6645908,RED,blue,blue,True,1.2309701442718506
444,1749741444.8995917,GREEN,blue,blue,True,0.6883034706115723
445,1749741445.590362,GREEN,blue,blue,True,1.2441868782043457
446,1749741446.8429706,BLUE,red,red,True,1.4972765445709229
447,1749741448.3474348,YELLOW,red,red,True,1.3231837749481201
448,1749741449.680464,BLUE,yellow,yellow,True,1.098024845123291
449,1749741450.783676,YELLOW,green,green,True,1.099442481994629
450,1749741451.8904123,BLUE,blue,blue,True,0.9084758758544922
451,1749741452.8027084,RED,green,green,True,1.5021021366119385
452,1749741454.3136375,YELLOW,green,green,True,0.7792830467224121
453,1749741455.1067617,BLUE,yellow,yellow,True,0.9505910873413086
454,1749741456.0670075,RED,yellow,yellow,True,0.487229585647583
455,1749741456.5552604,RED,blue,blue,True,1.1252286434173584
456,1749741457.693084,GREEN,blue,blue,True,0.6163218021392822
457,1749741458.3158875,RED,blue,blue,True,0.5942397117614746
458,1749741458.9114,RED,blue,blue,True,0.9645521640777588
459,1749741459.8771455,RED,yellow,yellow,True,0.9568512439727783
460,1749741460.8339968,RED,yellow,yellow,True,0.8006675243377686
461,1749741461.635663,RED,blue,blue,True,1.113189458847046
462,1749741462.7595634,YELLOW,green,green,True,0.9929590225219727
463,1749741463.7594514,BLUE,red,red,True,2.488468647003174
464,1749741466.2491834,BLUE,red,red,True,0.5700218677520752
465,1749741466.823621,RED,yellow,yellow,True,0.9799761772155762
466,1749741467.811313,GREEN,blue,blue,True,1.6696176528930664
467,1749741469.4821725,GREEN,green,green,True,1.0897338390350342
468,1749741470.5719063,GREEN,blue,blue,True,0.8898320198059082
469,1749741471.4739943,YELLOW,red,red,True,0.844696044921875
470,1749741472.3251042,BLUE,green,green,True,1.6898791790008545
471,1749741474.0249765,YELLOW,red,red,True,1.0961675643920898
472,1749741475.1300032,GREEN,red,red,True,0.7974643707275391
473,1749741475.9335048,YELLOW,red,red,True,0.6654376983642578
474,1749741476.599943,YELLOW,green,green,True,1.0005686283111572
475,1749741477.6038358,BLUE,red,red,True,0.6809039115905762
476,1749741478.2857397,BLUE,yellow,yellow,True,0.8378775119781494
477,1749741479.1336942,GREEN,green,green,True,0.9630155563354492
478,1749741480.0987246,GREEN,blue,blue,True,1.5318779945373535
479,1749741481.63968,BLUE,yellow,yellow,True,1.379117727279663
480,1749741483.0285342,GREEN,red,red,True,1.7068328857421875
481,1749741484.7437277,BLUE,green,green,True,1.1834321022033691
482,1749741485.932535,GREEN,red,red,True,1.71429443359375
483,1749741487.651263,YELLOW,yellow,yellow,True,0.8852546215057373
484,1749741488.5365176,YELLOW,green,green,True,1.5752379894256592
485,1749741490.1127563,YELLOW,yellow,yellow,True,3.018483877182007
486,1749741493.1346004,BLUE,red,red,True,1.1945149898529053
487,1749741494.3368168,YELLOW,yellow,yellow,True,1.0418553352355957
488,1749741495.3869376,BLUE,green,green,True,4.603135108947754
489,1749741499.991069,BLUE,blue,blue,True,1.2125582695007324
490,1749741501.2086282,RED,green,green,True,2.6548941135406494
491,1749741503.8673816,YELLOW,red,red,True,2.466630220413208
492,1749741506.3351498,YELLOW,blue,blue,True,1.389430284500122
493,1749741507.7256045,YELLOW,yellow,yellow,True,1.0086462497711182
494,1749741508.742079,RED,red,red,True,1.6695644855499268
495,1749741510.417315,BLUE,blue,blue,True,1.057516098022461
496,1749741511.4758356,BLUE,yellow,yellow,True,1.7118699550628662
497,1749741513.1942255,GREEN,red,red,True,2.0849595069885254
498,1749741515.2856507,BLUE,yellow,yellow,True,1.026151418685913
499,1749741516.317802,GREEN,red,red,True,0.841200590133667
500,1749741517.1631417,YELLOW,yellow,yellow,True,0.6690142154693604
501,1749741517.836164,RED,green,green,True,0.9307215213775635
502,1749741518.7680943,RED,yellow,yellow,True,0.6985080242156982
503,1749741519.474593,YELLOW,blue,blue,True,0.7782595157623291
504,1749741520.2541032,YELLOW,green,green,True,0.8738083839416504
505,1749741521.1289117,YELLOW,red,red,True,1.0249531269073486
506,1749741522.1605525,GREEN,yellow,yellow,True,1.256568431854248
507,1749741523.424064,RED,blue,blue,True,0.9497895240783691
508,1749741524.3817291,GREEN,red,red,True,0.979224443435669
509,1749741525.368908,YELLOW,yellow,yellow,True,0.8856770992279053
510,1749741526.262534,BLUE,green,green,True,1.1257209777832031
511,1749741527.3963711,YELLOW,blue,blue,True,1.7016751766204834
512,1749741529.099043,YELLOW,red,red,True,0.698279619216919
513,1749741529.8026242,RED,green,green,True,1.035165548324585
514,1749741530.8460662,YELLOW,yellow,yellow,True,0.7941956520080566
515,1749741531.6487336,BLUE,blue,blue,True,0.7616205215454102
516,1749741532.4168952,RED,yellow,yellow,True,0.7921233177185059
517,1749741533.2164342,GREEN,yellow,yellow,True,0.6776368618011475
518,1749741533.8974886,YELLOW,green,green,True,0.8657357692718506
519,1749741534.767717,GREEN,green,green,True,0.5423986911773682
520,1749741535.3111243,GREEN,blue,blue,True,1.8733055591583252
521,1749741537.185445,GREEN,green,green,True,0.8122158050537109
522,1749741537.998658,GREEN,blue,blue,True,0.5460972785949707
523,1749741538.5517285,YELLOW,yellow,yellow,True,0.7662580013275146
524,1749741539.3258138,BLUE,yellow,yellow,True,0.80906081199646
525,1749741540.141425,GREEN,blue,blue,True,1.0073635578155518
526,1749741541.155621,BLUE,yellow,yellow,True,0.8219783306121826
527,1749741541.9854424,GREEN,yellow,yellow,True,0.5666732788085938
528,1749741542.5531461,GREEN,yellow,yellow,True,0.951887845993042
529,1749741543.5085049,YELLOW,yellow,yellow,True,0.44440269470214844
530,1749741543.9563236,GREEN,red,red,True,0.7951750755310059
531,1749741544.7553113,RED,blue,blue,True,1.0447907447814941
532,1749741545.8062196,YELLOW,red,red,True,1.0620195865631104
533,1749741546.8769193,GREEN,yellow,yellow,True,0.8389370441436768
534,1749741547.7158563,GREEN,red,green,False,0.9521329402923584
535,1749741548.6698306,GREEN,red,red,True,1.5668652057647705
536,1749741550.2441967,YELLOW,green,green,True,2.556382894515991
537,1749741552.8089077,BLUE,yellow,yellow,True,2.979118824005127
538,1749741555.795602,GREEN,red,red,True,1.8773231506347656
539,1749741557.6798885,BLUE,red,red,True,0.6217501163482666
540,1749741558.3089664,YELLOW,red,red,True,0.42877650260925293
541,1749741558.7387507,YELLOW,yellow,yellow,True,0.987581729888916
542,1749741559.734016,BLUE,green,green,True,1.114332914352417
543,1749741560.849477,BLUE,blue,blue,True,2.0396456718444824
544,1749741562.8959029,YELLOW,yellow,yellow,True,1.4051618576049805
545,1749741564.3020651,YELLOW,yellow,yellow,True,0.7600424289703369
546,1749741565.0701048,BLUE,blue,blue,True,0.7579033374786377
547,1749741565.8290138,BLUE,blue,blue,True,0.6841132640838623
548,1749741566.5210562,GREEN,blue,green,False,1.0164635181427002
549,1749741567.5441916,YELLOW,blue,blue,True,1.8548858165740967
550,1749741569.4008095,YELLOW,yellow,yellow,True,1.1489551067352295
551,1749741570.5521035,YELLOW,red,red,True,1.118718147277832
552,1749741571.6717038,YELLOW,yellow,yellow,True,1.0311803817749023
553,1749741572.7048817,YELLOW,yellow,yellow,True,1.0260834693908691
554,1749741573.7391286,GREEN,green,green,True,0.9407534599304199
555,1749741574.687841,BLUE,red,red,True,1.3429009914398193
556,1749741576.0317447,BLUE,green,green,True,2.6588268280029297
557,1749741578.6915953,BLUE,blue,blue,True,1.624121904373169
558,1749741580.31672,BLUE,yellow,yellow,True,1.298241138458252
559,1749741581.6230707,YELLOW,green,green,True,1.0806095600128174
560,1749741582.7036803,YELLOW,green,green,True,0.5854978561401367
561,1749741583.2965913,RED,yellow,yellow,True,1.396345853805542
562,1749741584.6939442,RED,red,red,True,0.815873384475708
563,1749741585.5104978,RED,yellow,yellow,True,0.7643387317657471
564,1749741586.275834,RED,yellow,yellow,True,0.6712963581085205
565,1749741586.9491546,RED,yellow,yellow,True,0.545191764831543
566,1749741587.495366,RED,blue,blue,True,1.3636276721954346
567,1749741588.8650136,YELLOW,green,green,True,1.052551031112671
568,1749741589.9248714,BLUE,red,red,True,1.5834119319915771
569,1749741591.515563,GREEN,blue,blue,True,1.0043766498565674
570,1749741592.5263612,BLUE,blue,blue,True,0.4527888298034668
571,1749741592.987061,YELLOW,blue,blue,True,0.6867082118988037
572,1749741593.6737692,YELLOW,yellow,yellow,True,0.7454016208648682
573,1749741594.425159,RED,yellow,yellow,True,0.6407866477966309
574,1749741595.0701263,BLUE,green,green,True,1.8267405033111572
575,1749741596.9042764,GREEN,green,green,True,0.4619569778442383
576,1749741597.3724482,RED,yellow,yellow,True,0.7116909027099609
577,1749741598.087823,YELLOW,yellow,yellow,True,0.4555826187133789
578,1749741598.5504475,BLUE,red,red,True,1.0198912620544434
579,1749741599.577481,YELLOW,green,green,True,0.9779160022735596
580,1749741600.562196,RED,red,red,True,0.5137922763824463
581,1749741601.0843768,YELLOW,red,red,True,0.6854777336120605
582,1749741601.7739875,RED,yellow,yellow,True,0.7954370975494385
583,1749741602.576746,BLUE,blue,blue,True,0.9370698928833008
584,1749741603.5197928,RED,red,red,True,1.4500129222869873
585,1749741604.9756436,YELLOW,blue,blue,True,1.1634244918823242
586,1749741606.1410763,YELLOW,blue,blue,True,0.41146278381347656
587,1749741606.5560448,GREEN,yellow,yellow,True,1.094907522201538
588,1749741607.6529772,GREEN,blue,blue,True,3.013561248779297
589,1749741610.6703908,BLUE,blue,blue,True,0.547539234161377
590,1749741611.2229261,RED,green,green,True,1.963958501815796
591,1749741613.1878824,RED,yellow,yellow,True,0.865706205368042
592,1749741614.059691,GREEN,yellow,yellow,True,0.5234055519104004
593,1749741614.584096,GREEN,green,green,True,0.7387599945068359
594,1749741615.3261232,RED,blue,blue,True,1.7973363399505615
595,1749741617.1244593,RED,green,green,True,1.2739806175231934
596,1749741618.3994472,RED,red,red,True,0.8302004337310791
597,1749741619.235666,BLUE,green,blue,False,1.163881778717041
598,1749741620.406563,GREEN,yellow,yellow,True,1.1336901187896729
599,1749741621.5412555,GREEN,blue,blue,True,2.3939130306243896
600,1749741623.9361703,GREEN,green,green,True,1.7071263790130615
601,1749741625.6469617,YELLOW,blue,blue,True,1.13511061668396
602,1749741626.7830732,YELLOW,yellow,yellow,True,0.8554515838623047
603,1749741627.6452684,RED,red,red,True,0.9470689296722412
604,1749741628.6005876,BLUE,red,red,True,1.1568145751953125
605,1749741629.7653308,GREEN,blue,red,False,0.20192742347717285
606,1749741629.9692502,GREEN,green,green,True,2.2301347255706787
607,1749741632.2070816,YELLOW,yellow,yellow,True,0.8582108020782471
608,1749741633.0706973,GREEN,green,green,True,0.6838104724884033
609,1749741633.7608266,YELLOW,green,green,True,1.6282846927642822
610,1749741635.3929706,RED,blue,blue,True,1.502340316772461
611,1749741636.902125,GREEN,blue,blue,True,0.784034013748169
612,1749741637.6953356,RED,red,red,True,0.7388098239898682
613,1749741638.4433844,BLUE,yellow,yellow,True,1.0478830337524414
614,1749741639.499713,YELLOW,red,red,True,3.0204250812530518
615,1749741642.5266056,BLUE,blue,blue,True,0.8652398586273193
616,1749741643.3985984,RED,yellow,yellow,True,1.343292474746704
617,1749741644.7480063,YELLOW,red,red,True,1.410140037536621
618,1749741646.1591454,YELLOW,red,red,True,0.5580265522003174
619,1749741646.7181706,YELLOW,green,green,True,1.3280608654022217
620,1749741648.0539055,GREEN,red,red,True,2.041912794113159
621,1749741650.102758,BLUE,red,red,True,0.38230156898498535
622,1749741650.4949226,YELLOW,red,red,True,0.3651602268218994
623,1749741650.8620927,YELLOW,blue,blue,True,0.9238536357879639
624,1749741651.7936182,BLUE,blue,blue,True,0.427415132522583
625,1749741652.2248561,GREEN,blue,blue,True,0.39875364303588867
626,1749741652.6275043,BLUE,green,green,True,1.2726078033447266
627,1749741653.9078834,GREEN,red,red,True,1.369307518005371
628,1749741655.2841668,YELLOW,blue,blue,True,0.9724526405334473
629,1749741656.25864,YELLOW,green,green,True,1.033613681793213
630,1749741657.2982378,RED,red,red,True,0.793128252029419
631,1749741658.097471,BLUE,yellow,yellow,True,0.9835426807403564
632,1749741659.0881746,GREEN,red,red,True,3.313204288482666
633,1749741662.4083726,BLUE,yellow,yellow,True,2.8144607543945312
634,1749741665.2269332,GREEN,blue,blue,True,1.6148629188537598
635,1749741666.8428123,GREEN,yellow,yellow,True,1.0389766693115234
636,1749741667.8894475,YELLOW,blue,blue,True,1.100236177444458
637,1749741668.99345,RED,blue,blue,True,0.685478687286377
638,1749741669.6861966,YELLOW,blue,blue,True,0.5985522270202637
639,1749741670.2857513,YELLOW,yellow,yellow,True,0.8440485000610352
640,1749741671.1380718,RED,blue,blue,True,0.8990557193756104
641,1749741672.042588,YELLOW,red,red,True,2.0008184909820557
642,1749741674.0477629,BLUE,blue,blue,True,1.4748430252075195
643,1749741675.5279942,GREEN,blue,blue,True,0.6583595275878906
644,1749741676.1933823,RED,green,green,True,1.540247917175293
645,1749741677.7381144,BLUE,red,red,True,4.261835098266602
646,1749741682.0045285,BLUE,yellow,yellow,True,0.8937339782714844
647,1749741682.9064388,YELLOW,green,green,True,1.5745794773101807
648,1749741684.4820464,YELLOW,blue,blue,True,4.229212999343872
649,1749741688.7199395,BLUE,blue,blue,True,0.4867415428161621
650,1749741689.213885,YELLOW,green,green,True,0.9908840656280518
651,1749741690.2057676,YELLOW,red,yellow,False,1.7978157997131348
652,1749741692.0114193,BLUE,blue,blue,True,1.569547176361084
653,1749741693.5899749,GREEN,red,red,True,0.8732743263244629
654,1749741694.4675415,BLUE,blue,blue,True,1.1944465637207031
655,1749741695.6698153,GREEN,blue,blue,True,1.9192030429840088
656,1749741697.5967689,YELLOW,red,red,True,1.3974919319152832
657,1749741699.0023963,GREEN,green,green,True,0.7316668033599854
658,1749741699.7409365,BLUE,blue,blue,True,0.9082789421081543
659,1749741700.6550133,GREEN,yellow,yellow,True,1.0870890617370605
660,1749741701.7492666,BLUE,blue,blue,True,0.8341841697692871
661,1749741702.5872922,RED,red,red,True,0.6472728252410889
662,1749741703.2416608,YELLOW,blue,blue,True,1.6690216064453125
663,1749741704.9116774,YELLOW,yellow,yellow,True,0.7196588516235352
664,1749741705.6323483,YELLOW,blue,blue,True,0.8123703002929688
665,1749741706.4457283,YELLOW,yellow,yellow,True,0.6625001430511475
666,1749741707.1112518,YELLOW,blue,blue,True,0.6166069507598877
667,1749741707.7340252,GREEN,blue,blue,True,1.1288464069366455
668,1749741708.8713756,YELLOW,red,red,True,1.0599935054779053
669,1749741709.9323971,YELLOW,green,green,True,1.8317241668701172
670,1749741711.7717023,RED,yellow,yellow,True,1.4593827724456787
671,1749741713.2376244,YELLOW,red,red,True,1.6118433475494385
672,1749741714.8550715,RED,green,green,True,0.9475674629211426
673,1749741715.8110254,YELLOW,red,red,True,0.8936612606048584
674,1749741716.714786,GREEN,yellow,yellow,True,0.9902560710906982
675,1749741717.7130322,YELLOW,yellow,yellow,True,0.5378437042236328
676,1749741718.2574456,BLUE,yellow,yellow,True,0.4391038417816162
677,1749741718.7040904,RED,yellow,yellow,True,0.45587825775146484
678,1749741719.1609676,RED,red,red,True,1.1061673164367676
679,1749741720.2753892,YELLOW,green,green,True,0.6429505348205566
680,1749741720.9193482,YELLOW,blue,blue,True,0.8541297912597656
681,1749741721.7799819,RED,red,red,True,0.681837797164917
682,1749741722.468184,GREEN,red,red,True,0.6689884662628174
683,1749741723.1453927,RED,yellow,yellow,True,0.6213016510009766
684,1749741723.7677314,RED,yellow,yellow,True,0.6651887893676758
685,1749741724.4394157,BLUE,yellow,yellow,True,0.5118143558502197
686,1749741724.9568233,YELLOW,red,red,True,0.8209385871887207
687,1749741725.7797794,YELLOW,yellow,yellow,True,0.5041837692260742
688,1749741726.2914739,BLUE,yellow,yellow,True,0.9296050071716309
689,1749741727.2288194,RED,red,red,True,0.5776150226593018
690,1749741727.809073,YELLOW,red,red,True,0.6768412590026855
691,1749741728.4939113,GREEN,green,green,True,0.9168655872344971
692,1749741729.4176846,RED,blue,blue,True,1.400721788406372
693,1749741730.8252876,BLUE,red,red,True,1.982621192932129
694,1749741732.8142781,GREEN,red,red,True,0.39859819412231445
695,1749741733.2173622,YELLOW,blue,blue,True,0.9318625926971436
696,1749741734.1566763,RED,yellow,yellow,True,0.9168126583099365
697,1749741735.0745153,RED,green,green,True,0.8428833484649658
698,1749741735.9200833,GREEN,green,green,True,0.4198160171508789
699,1749741736.3437958,BLUE,green,green,True,0.4602959156036377
700,1749741736.8076952,RED,green,green,True,0.3757915496826172
701,1749741737.1899927,BLUE,blue,blue,True,1.4362270832061768
702,1749741738.6272197,BLUE,green,green,True,1.3089089393615723
703,1749741739.9440064,GREEN,green,green,True,0.44026994705200195
704,1749741740.3852746,GREEN,green,green,True,0.7324488162994385
705,1749741741.1233513,BLUE,green,green,True,0.4567570686340332
706,1749741741.5869708,RED,red,red,True,1.0414323806762695
707,1749741742.6351004,GREEN,blue,blue,True,1.1151237487792969
708,1749741743.7525268,GREEN,green,green,True,1.4854481220245361
709,1749741745.2456856,YELLOW,red,red,True,1.4100544452667236
710,1749741746.656735,YELLOW,green,green,True,1.125960111618042
711,1749741747.7902992,RED,blue,blue,True,1.1968843936920166
712,1749741748.9881299,RED,yellow,blue,False,0.890514612197876
713,1749741749.8864105,BLUE,red,red,True,2.4871890544891357
714,1749741752.3798916,YELLOW,red,red,True,0.5453610420227051
715,1749741752.9280925,BLUE,blue,blue,True,1.8062896728515625
716,1749741754.742094,GREEN,red,red,True,0.8943238258361816
717,1749741755.6438072,RED,blue,blue,True,0.6371738910675049
718,1749741756.2819977,RED,green,green,True,0.8696620464324951
719,1749741757.160072,GREEN,red,red,True,1.473701000213623
720,1749741758.6347783,GREEN,red,red,True,1.757143497467041
721,1749741760.3929417,GREEN,red,red,True,0.4012258052825928
722,1749741760.7963421,GREEN,green,green,True,0.7688205242156982
723,1749741761.5743625,YELLOW,green,green,True,0.4487175941467285
724,1749741762.0295854,RED,red,red,True,0.8232345581054688
725,1749741762.858804,BLUE,yellow,yellow,True,0.8643505573272705
726,1749741763.7288954,RED,red,red,True,1.0794880390167236
727,1749741764.8125901,BLUE,red,red,True,0.4259519577026367
728,1749741765.2452774,GREEN,green,green,True,1.0532758235931396
729,1749741766.3075411,YELLOW,blue,blue,True,1.0081121921539307
730,1749741767.3217375,GREEN,blue,blue,True,0.4024467468261719
731,1749741767.7314253,YELLOW,yellow,yellow,True,1.0123517513275146
732,1749741768.751561,BLUE,red,red,True,1.5456855297088623
733,1749741770.3048317,YELLOW,green,green,True,1.453183650970459
734,1749741771.7600124,YELLOW,yellow,yellow,True,0.927788257598877
735,1749741772.689798,YELLOW,green,green,True,2.4265241622924805
736,1749741775.1233003,BLUE,green,green,True,0.6545698642730713
737,1749741775.7788699,BLUE,red,red,True,1.113574743270874
738,1749741776.8982444,RED,blue,blue,True,0.9623889923095703
739,1749741777.8629444,YELLOW,red,red,True,1.1365704536437988
740,1749741779.0073326,BLUE,red,red,True,0.715282678604126
741,1749741779.7276306,YELLOW,blue,blue,True,0.8555479049682617
742,1749741780.5909586,GREEN,yellow,yellow,True,1.1165220737457275
743,1749741781.713668,BLUE,red,red,True,1.8065133094787598
744,1749741783.526221,RED,red,red,True,0.44670820236206055
745,1749741783.9753494,RED,green,green,True,0.7581527233123779
746,1749741784.7389693,YELLOW,yellow,yellow,True,0.872563362121582
747,1749741785.6177382,BLUE,green,green,True,1.0760622024536133
748,1749741786.6992862,RED,blue,blue,True,1.505488395690918
749,1749741788.2113206,GREEN,yellow,blue,False,0.07876753807067871
750,1749741788.296531,YELLOW,green,green,True,1.9516968727111816
751,1749741790.2548223,GREEN,blue,blue,True,0.7761063575744629
752,1749741791.0379548,YELLOW,blue,blue,True,0.6180260181427002
753,1749741791.6569774,YELLOW,red,red,True,0.7073423862457275
754,1749741792.367003,YELLOW,green,green,True,1.1224358081817627
755,1749741793.4914303,YELLOW,green,green,True,1.0769624710083008
756,1749741794.5693953,YELLOW,blue,blue,True,2.4602460861206055
757,1749741797.0316377,YELLOW,red,red,True,1.409940481185913
758,1749741798.4497523,BLUE,red,red,True,0.466616153717041
759,1749741798.9230983,YELLOW,red,red,True,0.37506103515625
760,1749741799.305878,RED,blue,blue,True,1.1567928791046143
761,1749741800.4692256,BLUE,blue,blue,True,0.4416639804840088
762,1749741800.9182715,GREEN,yellow,yellow,True,1.0575025081634521
763,1749741801.9833815,BLUE,yellow,yellow,True,0.40979790687561035
764,1749741802.3931794,BLUE,yellow,yellow,True,0.9910330772399902
765,1749741803.3869512,YELLOW,yellow,yellow,True,0.48566365242004395
766,1749741803.8792691,BLUE,blue,blue,True,0.9964475631713867
767,1749741804.876735,BLUE,yellow,yellow,True,0.6800134181976318
768,1749741805.564668,RED,blue,blue,True,0.577707052230835
769,1749741806.1513417,BLUE,red,red,True,1.896416187286377
770,1749741808.054078,GREEN,blue,blue,True,2.963444471359253
771,1749741811.0251431,YELLOW,red,red,True,1.0842835903167725
772,1749741812.1128714,RED,blue,blue,True,0.722801923751831
773,1749741812.8398094,BLUE,yellow,yellow,True,1.6126267910003662
774,1749741814.4558513,GREEN,blue,blue,True,1.3983345031738281
775,1749741815.8574586,RED,yellow,yellow,True,1.1486387252807617
776,1749741817.01031,YELLOW,red,red,True,1.3606343269348145
777,1749741818.373806,RED,blue,blue,True,1.4075851440429688
778,1749741819.7899501,GREEN,red,red,True,0.9543983936309814
779,1749741820.7518635,RED,green,green,True,0.9382948875427246
780,1749741821.6971533,BLUE,yellow,yellow,True,2.8642070293426514
781,1749741824.5623953,BLUE,green,green,True,2.0130836963653564
782,1749741826.57888,RED,yellow,yellow,True,0.8318281173706055
783,1749741827.4161935,GREEN,green,green,True,0.8508663177490234
784,1749741828.2709978,YELLOW,green,green,True,1.1543846130371094
785,1749741829.4332526,GREEN,red,red,True,0.9385895729064941
786,1749741830.3730228,GREEN,blue,blue,True,1.0251891613006592
787,1749741831.4001994,GREEN,red,red,True,0.7267420291900635
788,1749741832.1338496,BLUE,green,green,True,1.402787208557129
789,1749741833.5436187,GREEN,red,red,True,1.2991960048675537
790,1749741834.8467088,BLUE,green,green,True,1.398597002029419
791,1749741836.2508187,GREEN,yellow,yellow,True,0.8413248062133789
792,1749741837.1061096,YELLOW,blue,blue,True,1.0235581398010254
793,1749741838.1352978,GREEN,green,green,True,1.619133710861206
794,1749741839.7610018,YELLOW,yellow,yellow,True,0.9771015644073486
795,1749741840.746434,BLUE,red,red,True,1.384639024734497
796,1749741842.1330717,BLUE,red,red,True,0.5395989418029785
797,1749741842.678665,GREEN,yellow,yellow,True,0.9988188743591309
798,1749741843.678614,GREEN,green,green,True,1.1170048713684082
799,1749741844.7977893,GREEN,green,green,True,0.5473978519439697
